key_Instrc.keys,key_Instrc.rt,participant,session,date,expName,psychopyVersion,OS,frameRate,key_Instrc2.keys,key_Instrc2.rt,key_resp_L.keys,key_resp_L.rt,spacebarpress.keys,spacebarpress.rt,consent_resp.keys,consent_resp.rt,key_resp_2.keys,key_resp_2.rt,checksequence.text,Mousetocontinue.x,Mousetocontinue.y,Mousetocontinue.leftButton,Mousetocontinue.midButton,Mousetocontinue.rightButton,Mousetocontinue.time,Mousetocontinue.clicked_name,key_resp_3.keys,key_resp_3.rt,trials.thisRepN,trials.thisTrialN,trials.thisN,trials.thisIndex,trials.ran,Experiment_try,Checkmate
space,25.1301,23,1,2024-01-18_09h25.05.362,FamTaskFinal,2022.2.4,Win32,60.24096386,,,,,,,,,,,,,,,,,,,,,,,,,,,
,,23,1,2024-01-18_09h25.05.362,FamTaskFinal,2022.2.4,Win32,60.24096386,space,22.3899,,,,,,,,,,,,,,,,,,,,,,,,,
,,23,1,2024-01-18_09h25.05.362,FamTaskFinal,2022.2.4,Win32,60.24096386,,,space,16.515,,,,,,,,,,,,,,,,,,,,,,,
,,23,1,2024-01-18_09h25.05.362,FamTaskFinal,2022.2.4,Win32,60.24096386,,,,,space,47.1312,,,,,,,,,,,,,,,,,,,,,
,,23,1,2024-01-18_09h25.05.362,FamTaskFinal,2022.2.4,Win32,60.24096386,,,,,,,space,26.0873,,,,,,,,,,,,,,,,,,,
,,23,1,2024-01-18_09h25.05.362,FamTaskFinal,2022.2.4,Win32,60.24096386,,,,,,,,,space,0.4564,,,,,,,,,,,,,,,,,
,,23,1,2024-01-18_09h25.05.362,FamTaskFinal,2022.2.4,Win32,60.24096386,,,,,,,,,,,,,,,,,,,,,,,,,,,
,,23,1,2024-01-18_09h25.05.362,FamTaskFinal,2022.2.4,Win32,60.24096386,,,,,,,,,,, ,0.142592607,-0.405555584,1.0,0.0,0.0,47.3921,endtext,space,8.6567,0.0,0.0,0.0,39.0,1.0,NC5_Images_EasyPosition6(Nomate).png,no
,,23,1,2024-01-18_09h25.05.362,FamTaskFinal,2022.2.4,Win32,60.24096386,,,,,,,,,,,,0.010185171,-0.40370369,1.0,0.0,0.0,28.4832,endtext,space,1.6942,0.0,1.0,1.0,16.0,1.0,C4_Images_StrekalovskyShaposhlikov.png,Yes
,,23,1,2024-01-18_09h25.05.362,FamTaskFinal,2022.2.4,Win32,60.24096386,,,,,,,,,,,Rd8,0.001851894,-0.406481496,1.0,0.0,0.0,20.2045,endtext,space,1.5081,0.0,2.0,2.0,6.0,1.0,C2_Images_Replacement4.png,Yes
,,23,1,2024-01-18_09h25.05.362,FamTaskFinal,2022.2.4,Win32,60.24096386,,,,,,,,,,,,0.020370413,-0.395370413,1.0,0.0,0.0,49.8884,endtext,space,1.5671,0.0,3.0,3.0,20.0,1.0,NC1_Images_Frombeautiful(Nomate).png,no
,,23,1,2024-01-18_09h25.05.362,FamTaskFinal,2022.2.4,Win32,60.24096386,,,,,,,,,,,Nd7,0.021296325,-0.393518519,1.0,0.0,0.0,18.8037,endtext,space,2.6353,0.0,4.0,4.0,10.0,1.0,C3_Images_StudybyErcoledelRio(Reversed).png,Yes
,,23,1,2024-01-18_09h25.05.362,FamTaskFinal,2022.2.4,Win32,60.24096386,,,,,,,,,,,Rg8,-0.050000014,-0.413888931,1.0,0.0,0.0,9.9475,endtext,space,1.3189,0.0,5.0,5.0,0.0,1.0,C1_Images_Frombeautiful.png,Yes
,,23,1,2024-01-18_09h25.05.362,FamTaskFinal,2022.2.4,Win32,60.24096386,,,,,,,,,,,Ne7,-0.050925926,-0.393518519,0.0,0.0,1.0,27.7428,endtext,space,4.2318,0.0,6.0,6.0,7.0,1.0,C3_Images_KazicVukovic(Reversed).png,Yes
,,23,1,2024-01-18_09h25.05.362,FamTaskFinal,2022.2.4,Win32,60.24096386,,,,,,,,,,,,-0.007407365,-0.390740783,1.0,0.0,0.0,20.1803,endtext,space,1.605,0.0,7.0,7.0,24.0,1.0,NC2_Images_KrauseMeinhardt(Nomate).png,no
,,23,1,2024-01-18_09h25.05.362,FamTaskFinal,2022.2.4,Win32,60.24096386,,,,,,,,,,,,-0.014814801,-0.404629672,1.0,0.0,0.0,18.2651,endtext,space,1.1141,0.0,8.0,8.0,22.0,1.0,NC1_Images_WinterFriede(Nomate)(Reversed).png,no
,,23,1,2024-01-18_09h25.05.362,FamTaskFinal,2022.2.4,Win32,60.24096386,,,,,,,,,,,Qb8,-0.021296254,-0.397222236,1.0,0.0,0.0,36.1642,endtext,space,2.8672,0.0,9.0,9.0,9.0,1.0,C3_Images_PodzerovKuntzevic(Reversed).png,Yes
,,23,1,2024-01-18_09h25.05.362,FamTaskFinal,2022.2.4,Win32,60.24096386,,,,,,,,,,,,-0.02407406,-0.39444443,1.0,0.0,0.0,15.281,endtext,space,3.6363,0.0,10.0,10.0,31.0,1.0,NC3_Images_TylorWinter(Nomate).png,no
,,23,1,2024-01-18_09h25.05.362,FamTaskFinal,2022.2.4,Win32,60.24096386,,,,,,,,,,,,-0.02407406,-0.380555541,1.0,0.0,0.0,6.9728,endtext,space,1.3019,0.0,11.0,11.0,21.0,1.0,NC1_Images_SteinitzNN(Nomate).png,no
,,23,1,2024-01-18_09h25.05.362,FamTaskFinal,2022.2.4,Win32,60.24096386,,,,,,,,,,,Ng6,0.05277782,-0.318518533,1.0,0.0,0.0,9.6811,endtext,space,2.1219,0.0,12.0,12.0,12.0,1.0,C3_Images_Replacement3.png,Yes
,,23,1,2024-01-18_09h25.05.362,FamTaskFinal,2022.2.4,Win32,60.24096386,,,,,,,,,,,,-0.02870369,-0.397222236,1.0,0.0,0.0,41.3249,endtext,space,1.3535,0.0,13.0,13.0,27.0,1.0,NC3_Images_KazicVukovic(Nomate)(Reversed).png,no
,,23,1,2024-01-18_09h25.05.362,FamTaskFinal,2022.2.4,Win32,60.24096386,,,,,,,,,,,,-0.057407379,-0.406481496,1.0,0.0,0.0,49.0736,endtext,space,1.1359,0.0,14.0,14.0,25.0,1.0,NC2_Images_SkujaRozenbergs(Nomate)(Reversed).png,no
,,23,1,2024-01-18_09h25.05.362,FamTaskFinal,2022.2.4,Win32,60.24096386,,,,,,,,,,,Ba6,-0.056481467,-0.440740727,1.0,0.0,0.0,11.4155,endtext,space,1.8034,0.0,15.0,15.0,18.0,1.0,C5_Images_EasyPosition5(Reversed).png,Yes
,,23,1,2024-01-18_09h25.05.362,FamTaskFinal,2022.2.4,Win32,60.24096386,,,,,,,,,,,,-0.04351849,-0.408333319,1.0,0.0,0.0,32.991,endtext,space,0.9171,0.0,16.0,16.0,23.0,1.0,NC2_Images_KekhayovPetrov(Nomate)(Reversed).png,no
,,23,1,2024-01-18_09h25.05.362,FamTaskFinal,2022.2.4,Win32,60.24096386,,,,,,,,,,,,-0.183333291,-0.259259259,1.0,0.0,0.0,31.9291,endtext,space,1.586,0.0,17.0,17.0,28.0,1.0,NC3_Images_MalininAndreev(Nomate)(Reversed).png,no
,,23,1,2024-01-18_09h25.05.362,FamTaskFinal,2022.2.4,Win32,60.24096386,,,,,,,,,,,Qh7,-0.121296282,-0.382407436,1.0,0.0,0.0,21.6386,endtext,space,1.4023,0.0,18.0,18.0,11.0,1.0,C3_Images_TylorWinter.png,Yes
,,23,1,2024-01-18_09h25.05.362,FamTaskFinal,2022.2.4,Win32,60.24096386,,,,,,,,,,,Nf7,-0.117592564,-0.39444443,1.0,0.0,0.0,7.0133,endtext,space,1.5275,0.0,19.0,19.0,19.0,1.0,C5_Images_EasyPosition6.png,Yes
,,23,1,2024-01-18_09h25.05.362,FamTaskFinal,2022.2.4,Win32,60.24096386,,,,,,,,,,,Qh7,-0.047222208,-0.406481496,1.0,0.0,0.0,7.7039,endtext,space,1.8399,0.0,20.0,20.0,17.0,1.0,C5_Images_EasyPosition2.png,Yes
,,23,1,2024-01-18_09h25.05.362,FamTaskFinal,2022.2.4,Win32,60.24096386,,,,,,,,,,,,-0.054629644,-0.419444473,1.0,0.0,0.0,9.9484,endtext,space,2.4999,0.0,21.0,21.0,38.0,1.0,NC5_Images_EasyPosition5(Nomate)(Reversed).png,no
,,23,1,2024-01-18_09h25.05.362,FamTaskFinal,2022.2.4,Win32,60.24096386,,,,,,,,,,,,-0.04814812,-0.388888889,1.0,0.0,0.0,41.2019,endtext,space,2.1141,0.0,22.0,22.0,26.0,1.0,NC2_Images_Replacement4(Nomate).png,no
,,23,1,2024-01-18_09h25.05.362,FamTaskFinal,2022.2.4,Win32,60.24096386,,,,,,,,,,,,-0.009259259,-0.412962949,1.0,0.0,0.0,38.049,endtext,space,1.1794,0.0,23.0,23.0,13.0,1.0,C3_Images_Replacement5.png,Yes
,,23,1,2024-01-18_09h25.05.362,FamTaskFinal,2022.2.4,Win32,60.24096386,,,,,,,,,,,,-0.001851824,-0.395370413,1.0,0.0,0.0,26.4941,endtext,space,0.98,0.0,24.0,24.0,34.0,1.0,NC4_Images_BrankaWittwer(Nomate)(Reversed).png,no
,,23,1,2024-01-18_09h25.05.362,FamTaskFinal,2022.2.4,Win32,60.24096386,,,,,,,,,,,Rg8,-0.054629644,-0.401851866,1.0,0.0,0.0,20.8983,endtext,space,3.4022,0.0,25.0,25.0,15.0,1.0,C4_Images_IvanchukSavchenko(Reversed).png,Yes
,,23,1,2024-01-18_09h25.05.362,FamTaskFinal,2022.2.4,Win32,60.24096386,,,,,,,,,,,Rb7,-0.075925898,-0.388888889,1.0,0.0,0.0,29.4031,endtext,space,1.0218,0.0,26.0,26.0,3.0,1.0,C2_Images_KekhayovPetrov(Reversed).png,Yes
,,23,1,2024-01-18_09h25.05.362,FamTaskFinal,2022.2.4,Win32,60.24096386,,,,,,,,,,,,-0.082407422,-0.416666667,1.0,0.0,0.0,23.5727,endtext,space,1.0391,0.0,27.0,27.0,30.0,1.0,NC3_Images_StudybyErcoleDelRio(Nomate)(Reversed).png,no
,,23,1,2024-01-18_09h25.05.362,FamTaskFinal,2022.2.4,Win32,60.24096386,,,,,,,,,,,Qe6,-0.085185157,-0.396296325,1.0,0.0,0.0,27.0822,endtext,space,0.9845,0.0,28.0,28.0,1.0,1.0,C1_Images_SteinitzNN.png,Yes
,,23,1,2024-01-18_09h25.05.362,FamTaskFinal,2022.2.4,Win32,60.24096386,,,,,,,,,,,,-0.086111069,-0.405555584,1.0,0.0,0.0,10.7875,endtext,space,2.6876,0.0,29.0,29.0,29.0,1.0,NC3_Images_PodzerovKuntzevic(Nomate)(Reversed).png,no
,,23,1,2024-01-18_09h25.05.362,FamTaskFinal,2022.2.4,Win32,60.24096386,,,,,,,,,,,,-0.083333333,-0.401851866,1.0,0.0,0.0,15.6563,endtext,space,1.7146,0.0,30.0,30.0,37.0,1.0,NC5_Images_EasyPosition2(Nomate).png,no
,,23,1,2024-01-18_09h25.05.362,FamTaskFinal,2022.2.4,Win32,60.24096386,,,,,,,,,,,Qe7,-0.059259273,-0.407407407,1.0,0.0,0.0,14.433,endtext,space,1.4048,0.0,31.0,31.0,4.0,1.0,C2_Images_KrauseMeinhardt.png,Yes
,,23,1,2024-01-18_09h25.05.362,FamTaskFinal,2022.2.4,Win32,60.24096386,,,,,,,,,,,Ra8,-0.056481467,-0.400925954,1.0,0.0,0.0,18.599,endtext,space,1.2986,0.0,32.0,32.0,8.0,1.0,C3_Images_MalininAndreev(Reversed).png,Yes
,,23,1,2024-01-18_09h25.05.362,FamTaskFinal,2022.2.4,Win32,60.24096386,,,,,,,,,,,Qc8,-0.062037009,-0.40370369,1.0,0.0,0.0,17.9636,endtext,space,1.3155,0.0,33.0,33.0,2.0,1.0,C1_Images_WinterFriede(Reversed).png,Yes
,,23,1,2024-01-18_09h25.05.362,FamTaskFinal,2022.2.4,Win32,60.24096386,,,,,,,,,,,Qc8,0.016666695,-0.387037065,1.0,0.0,0.0,20.2838,endtext,space,1.8855,0.0,34.0,34.0,5.0,1.0,C2_Images_SkujaRozenbergs(Reversed).png,Yes
,,23,1,2024-01-18_09h25.05.362,FamTaskFinal,2022.2.4,Win32,60.24096386,,,,,,,,,,,Ng5,0.002777806,-0.412037037,1.0,0.0,0.0,56.8659,endtext,space,0.8497,0.0,35.0,35.0,33.0,1.0,NC3_Images_Replacement5(Nomate).png,no
,,23,1,2024-01-18_09h25.05.362,FamTaskFinal,2022.2.4,Win32,60.24096386,,,,,,,,,,,,0.023148148,-0.404629672,1.0,0.0,0.0,7.2631,endtext,space,13.4851,0.0,36.0,36.0,32.0,1.0,NC3_Images_Replacement3(Nomate).png,no
,,23,1,2024-01-18_09h25.05.362,FamTaskFinal,2022.2.4,Win32,60.24096386,,,,,,,,,,,,0.012962977,-0.387037065,1.0,0.0,0.0,8.209,endtext,space,1.9383,0.0,37.0,37.0,35.0,1.0,NC4_Images_IvanchukSavchenko(Nomate)(Reversed).png,no
,,23,1,2024-01-18_09h25.05.362,FamTaskFinal,2022.2.4,Win32,60.24096386,,,,,,,,,,, ,0.005555541,-0.383333347,1.0,0.0,0.0,25.095,endtext,space,8.925,0.0,38.0,38.0,36.0,1.0,NC4_Images_StrekalovskyShaposhlikov(Nomate).png,no
,,23,1,2024-01-18_09h25.05.362,FamTaskFinal,2022.2.4,Win32,60.24096386,,,,,,,,,,,Qa7,-0.035185143,-0.397222236,1.0,0.0,0.0,12.1409,endtext,space,1.0522,0.0,39.0,39.0,14.0,1.0,C4_Images_BrankaWittwer(Reversed).png,Yes
,,23,1,2024-01-18_09h25.05.362,FamTaskFinal,2022.2.4,Win32,60.24096386,,,,,,,,,,,,,,,,,,,,,,,,,,,
