key_Instrc.keys,key_Instrc.rt,participant,session,date,expName,psychopyVersion,OS,frameRate,key_Instrc2.keys,key_Instrc2.rt,key_resp_L.keys,key_resp_L.rt,consent_resp.keys,consent_resp.rt,key_resp_2.keys,key_resp_2.rt,checksequence.text,Mousetocontinue.x,Mousetocontinue.y,Mousetocontinue.leftButton,Mousetocontinue.midButton,Mousetocontinue.rightButton,Mousetocontinue.time,Mousetocontinue.clicked_name,key_resp_3.keys,key_resp_3.rt,trials.thisRepN,trials.thisTrialN,trials.thisN,trials.thisIndex,trials.ran,Experiment_try,Checkmate
space,26.4562,3,1,2023-06-19_09h46.49.952,FamTaskFinal,2022.2.4,Win32,59.99160118,,,,,,,,,,,,,,,,,,,,,,,,,
,,3,1,2023-06-19_09h46.49.952,FamTaskFinal,2022.2.4,Win32,59.99160118,space,24.1915,,,,,,,,,,,,,,,,,,,,,,,
,,3,1,2023-06-19_09h46.49.952,FamTaskFinal,2022.2.4,Win32,59.99160118,,,space,3.821,,,,,,,,,,,,,,,,,,,,,
,,3,1,2023-06-19_09h46.49.952,FamTaskFinal,2022.2.4,Win32,59.99160118,,,,,space,1.2746,,,,,,,,,,,,,,,,,,,
,,3,1,2023-06-19_09h46.49.952,FamTaskFinal,2022.2.4,Win32,59.99160118,,,,,,,space,27.0527,,,,,,,,,,,,,,,,,
,,3,1,2023-06-19_09h46.49.952,FamTaskFinal,2022.2.4,Win32,59.99160118,,,,,,,,,,,,,,,,,,,,,,,,,
,,3,1,2023-06-19_09h46.49.952,FamTaskFinal,2022.2.4,Win32,59.99160118,,,,,,,,,Pb4,-0.017592536,-0.409259288,1.0,0.0,0.0,55.9998,endtext,space,4.1334,0.0,0.0,0.0,37.0,1.0,NC5_Images_EasyPosition2(Nomate).png,no
,,3,1,2023-06-19_09h46.49.952,FamTaskFinal,2022.2.4,Win32,59.99160118,,,,,,,,,,0.014814843,-0.393518575,1.0,0.0,0.0,59.4701,endtext,space,2.3831,0.0,1.0,1.0,35.0,1.0,NC4_Images_IvanchukSavchenko(Nomate)(Reversed).png,no
,,3,1,2023-06-19_09h46.49.952,FamTaskFinal,2022.2.4,Win32,59.99160118,,,,,,,,,Qh7,0.044444444,-0.411111111,1.0,0.0,0.0,18.6774,endtext,space,0.9108,0.0,2.0,2.0,11.0,1.0,C3_Images_TylorWinter.png,Yes
,,3,1,2023-06-19_09h46.49.952,FamTaskFinal,2022.2.4,Win32,59.99160118,,,,,,,,,Qc2,0.064814843,-0.401851908,1.0,0.0,0.0,62.7111,endtext,space,1.7967,0.0,3.0,3.0,23.0,1.0,NC2_Images_KekhayovPetrov(Nomate)(Reversed).png,no
,,3,1,2023-06-19_09h46.49.952,FamTaskFinal,2022.2.4,Win32,59.99160118,,,,,,,,,Rg8,0.0,-0.391666667,1.0,0.0,0.0,12.5238,endtext,space,1.2837,0.0,4.0,4.0,0.0,1.0,C1_Images_Frombeautiful.png,Yes
,,3,1,2023-06-19_09h46.49.952,FamTaskFinal,2022.2.4,Win32,59.99160118,,,,,,,,,,0.0,-0.391666667,1.0,0.0,0.0,106.8266,endtext,space,1.6076,0.0,5.0,5.0,24.0,1.0,NC2_Images_KrauseMeinhardt(Nomate).png,no
,,3,1,2023-06-19_09h46.49.952,FamTaskFinal,2022.2.4,Win32,59.99160118,,,,,,,,,Nf7,0.0,-0.391666667,1.0,0.0,0.0,42.7635,endtext,space,0.5071,0.0,6.0,6.0,19.0,1.0,C5_Images_EasyPosition6.png,Yes
,,3,1,2023-06-19_09h46.49.952,FamTaskFinal,2022.2.4,Win32,59.99160118,,,,,,,,,Bg6,0.0,-0.391666667,1.0,0.0,0.0,64.7525,endtext,space,0.9678,0.0,7.0,7.0,39.0,1.0,NC5_Images_EasyPosition6(Nomate).png,no
,,3,1,2023-06-19_09h46.49.952,FamTaskFinal,2022.2.4,Win32,59.99160118,,,,,,,,,Nf6,0.009259288,-0.403703732,1.0,0.0,0.0,32.3922,endtext,space,0.9361,0.0,8.0,8.0,7.0,1.0,C3_Images_KazicVukovic(Reversed).png,Yes
,,3,1,2023-06-19_09h46.49.952,FamTaskFinal,2022.2.4,Win32,59.99160118,,,,,,,,,,0.020370399,-0.408333333,1.0,0.0,0.0,77.9136,endtext,space,1.3731,0.0,9.0,9.0,20.0,1.0,NC1_Images_Frombeautiful(Nomate).png,no
,,3,1,2023-06-19_09h46.49.952,FamTaskFinal,2022.2.4,Win32,59.99160118,,,,,,,,,Rg8,0.055555556,-0.405555556,1.0,0.0,0.0,10.5956,endtext,space,3.827,0.0,10.0,10.0,15.0,1.0,C4_Images_IvanchukSavchenko(Reversed).png,Yes
,,3,1,2023-06-19_09h46.49.952,FamTaskFinal,2022.2.4,Win32,59.99160118,,,,,,,,,Qc8,-0.051851824,-0.389814843,1.0,0.0,0.0,27.8677,endtext,space,1.1029,0.0,11.0,11.0,5.0,1.0,C2_Images_SkujaRozenbergs(Reversed).png,Yes
,,3,1,2023-06-19_09h46.49.952,FamTaskFinal,2022.2.4,Win32,59.99160118,,,,,,,,,Rc1,-0.051851824,-0.389814843,1.0,0.0,0.0,56.796,endtext,space,1.0808,0.0,12.0,12.0,31.0,1.0,NC3_Images_TylorWinter(Nomate).png,no
,,3,1,2023-06-19_09h46.49.952,FamTaskFinal,2022.2.4,Win32,59.99160118,,,,,,,,,Ra1,-0.033333333,-0.396296353,1.0,0.0,0.0,86.5651,endtext,space,1.0481,0.0,13.0,13.0,38.0,1.0,NC5_Images_EasyPosition5(Nomate)(Reversed).png,no
,,3,1,2023-06-19_09h46.49.952,FamTaskFinal,2022.2.4,Win32,59.99160118,,,,,,,,,Rf5,-0.023148092,-0.413888889,1.0,0.0,0.0,46.9968,endtext,space,0.7851,0.0,14.0,14.0,21.0,1.0,NC1_Images_SteinitzNN(Nomate).png,no
,,3,1,2023-06-19_09h46.49.952,FamTaskFinal,2022.2.4,Win32,59.99160118,,,,,,,,,Qh7,-0.012962935,-0.418518575,1.0,0.0,0.0,68.1075,endtext,space,1.2917,0.0,15.0,15.0,17.0,1.0,C5_Images_EasyPosition2.png,Yes
,,3,1,2023-06-19_09h46.49.952,FamTaskFinal,2022.2.4,Win32,59.99160118,,,,,,,,,Nd7,-0.027777778,-0.393518575,1.0,0.0,0.0,22.9685,endtext,space,5.3153,0.0,16.0,16.0,10.0,1.0,C3_Images_StudybyErcoledelRio(Reversed).png,Yes
,,3,1,2023-06-19_09h46.49.952,FamTaskFinal,2022.2.4,Win32,59.99160118,,,,,,,,,Qf1,-0.013888889,-0.394444444,1.0,0.0,0.0,48.532,endtext,space,0.9327,0.0,17.0,17.0,22.0,1.0,NC1_Images_WinterFriede(Nomate)(Reversed).png,no
,,3,1,2023-06-19_09h46.49.952,FamTaskFinal,2022.2.4,Win32,59.99160118,,,,,,,,,Ng6,0.051851908,-0.399074131,1.0,0.0,0.0,27.105,endtext,space,0.8835,0.0,18.0,18.0,12.0,1.0,C3_Images_Replacement3.png,Yes
,,3,1,2023-06-19_09h46.49.952,FamTaskFinal,2022.2.4,Win32,59.99160118,,,,,,,,,Rg8,0.078703732,-0.404629686,1.0,0.0,0.0,51.9882,endtext,space,1.083,0.0,19.0,19.0,16.0,1.0,C4_Images_StrekalovskyShaposhlikov.png,Yes
,,3,1,2023-06-19_09h46.49.952,FamTaskFinal,2022.2.4,Win32,59.99160118,,,,,,,,,Rd8,0.045370399,-0.399074131,1.0,0.0,0.0,13.5432,endtext,space,0.7202,0.0,20.0,20.0,6.0,1.0,C2_Images_Replacement4.png,Yes
,,3,1,2023-06-19_09h46.49.952,FamTaskFinal,2022.2.4,Win32,59.99160118,,,,,,,,,Qc8,0.045370399,-0.399074131,1.0,0.0,0.0,10.7533,endtext,space,0.8334,0.0,21.0,21.0,2.0,1.0,C1_Images_WinterFriede(Reversed).png,Yes
,,3,1,2023-06-19_09h46.49.952,FamTaskFinal,2022.2.4,Win32,59.99160118,,,,,,,,,Qf6,0.045370399,-0.399074131,1.0,0.0,0.0,39.329,endtext,space,0.6648,0.0,22.0,22.0,36.0,1.0,NC4_Images_StrekalovskyShaposhlikov(Nomate).png,no
,,3,1,2023-06-19_09h46.49.952,FamTaskFinal,2022.2.4,Win32,59.99160118,,,,,,,,,Qe6,0.045370399,-0.399074131,1.0,0.0,0.0,7.7481,endtext,space,1.2831,0.0,23.0,23.0,1.0,1.0,C1_Images_SteinitzNN.png,Yes
,,3,1,2023-06-19_09h46.49.952,FamTaskFinal,2022.2.4,Win32,59.99160118,,,,,,,,,Ra8,-0.01851849,-0.412037065,1.0,0.0,0.0,17.5053,endtext,space,0.75,0.0,24.0,24.0,8.0,1.0,C3_Images_MalininAndreev(Reversed).png,Yes
,,3,1,2023-06-19_09h46.49.952,FamTaskFinal,2022.2.4,Win32,59.99160118,,,,,,,,,Pb4,0.046296353,-0.414814843,1.0,0.0,0.0,53.1375,endtext,space,0.5014,0.0,25.0,25.0,34.0,1.0,NC4_Images_BrankaWittwer(Nomate)(Reversed).png,no
,,3,1,2023-06-19_09h46.49.952,FamTaskFinal,2022.2.4,Win32,59.99160118,,,,,,,,,Bg8,0.046296353,-0.414814843,1.0,0.0,0.0,43.9477,endtext,space,0.9788,0.0,26.0,26.0,13.0,1.0,C3_Images_Replacement5.png,Yes
,,3,1,2023-06-19_09h46.49.952,FamTaskFinal,2022.2.4,Win32,59.99160118,,,,,,,,,,0.059259288,-0.400925954,1.0,0.0,0.0,42.5602,endtext,space,0.4771,0.0,27.0,27.0,32.0,1.0,NC3_Images_Replacement3(Nomate).png,no
,,3,1,2023-06-19_09h46.49.952,FamTaskFinal,2022.2.4,Win32,59.99160118,,,,,,,,,Rd8,0.059259288,-0.400925954,1.0,0.0,0.0,41.9388,endtext,space,0.4375,0.0,28.0,28.0,26.0,1.0,NC2_Images_Replacement4(Nomate).png,no
,,3,1,2023-06-19_09h46.49.952,FamTaskFinal,2022.2.4,Win32,59.99160118,,,,,,,,,Pa3,0.059259288,-0.400925954,1.0,0.0,0.0,44.7787,endtext,space,0.474,0.0,29.0,29.0,30.0,1.0,NC3_Images_StudybyErcoleDelRio(Nomate)(Reversed).png,no
,,3,1,2023-06-19_09h46.49.952,FamTaskFinal,2022.2.4,Win32,59.99160118,,,,,,,,,Ba6,0.041666667,-0.40648151,1.0,0.0,0.0,22.0035,endtext,space,1.0407,0.0,30.0,30.0,18.0,1.0,C5_Images_EasyPosition5(Reversed).png,Yes
,,3,1,2023-06-19_09h46.49.952,FamTaskFinal,2022.2.4,Win32,59.99160118,,,,,,,,,Nb6,0.041666667,-0.40648151,1.0,0.0,0.0,68.8077,endtext,space,0.4714,0.0,31.0,31.0,29.0,1.0,NC3_Images_PodzerovKuntzevic(Nomate)(Reversed).png,no
,,3,1,2023-06-19_09h46.49.952,FamTaskFinal,2022.2.4,Win32,59.99160118,,,,,,,,,Qe7,0.041666667,-0.40648151,1.0,0.0,0.0,11.8237,endtext,space,0.5671,0.0,32.0,32.0,4.0,1.0,C2_Images_KrauseMeinhardt.png,Yes
,,3,1,2023-06-19_09h46.49.952,FamTaskFinal,2022.2.4,Win32,59.99160118,,,,,,,,,Rb7,0.041666667,-0.40648151,1.0,0.0,0.0,30.9578,endtext,space,0.684,0.0,33.0,33.0,3.0,1.0,C2_Images_KekhayovPetrov(Reversed).png,Yes
,,3,1,2023-06-19_09h46.49.952,FamTaskFinal,2022.2.4,Win32,59.99160118,,,,,,,,,,0.041666667,-0.40648151,1.0,0.0,0.0,29.5505,endtext,space,0.7825,0.0,34.0,34.0,28.0,1.0,NC3_Images_MalininAndreev(Nomate)(Reversed).png,no
,,3,1,2023-06-19_09h46.49.952,FamTaskFinal,2022.2.4,Win32,59.99160118,,,,,,,,,Re1,0.041666667,-0.40648151,1.0,0.0,0.0,46.1399,endtext,space,0.7579,0.0,35.0,35.0,27.0,1.0,NC3_Images_KazicVukovic(Nomate)(Reversed).png,no
,,3,1,2023-06-19_09h46.49.952,FamTaskFinal,2022.2.4,Win32,59.99160118,,,,,,,,,Nb6,0.044444444,-0.40648151,1.0,0.0,0.0,25.4215,endtext,space,0.4601,0.0,36.0,36.0,9.0,1.0,C3_Images_PodzerovKuntzevic(Reversed).png,Yes
,,3,1,2023-06-19_09h46.49.952,FamTaskFinal,2022.2.4,Win32,59.99160118,,,,,,,,,,0.044444444,-0.40648151,1.0,0.0,0.0,32.9023,endtext,space,0.5209,0.0,37.0,37.0,25.0,1.0,NC2_Images_SkujaRozenbergs(Nomate)(Reversed).png,no
,,3,1,2023-06-19_09h46.49.952,FamTaskFinal,2022.2.4,Win32,59.99160118,,,,,,,,,,-0.008333333,-0.390740797,1.0,0.0,0.0,23.6773,endtext,space,0.4274,0.0,38.0,38.0,33.0,1.0,NC3_Images_Replacement5(Nomate).png,no
,,3,1,2023-06-19_09h46.49.952,FamTaskFinal,2022.2.4,Win32,59.99160118,,,,,,,,,Qa7,-0.008333333,-0.390740797,1.0,0.0,0.0,8.5218,endtext,space,0.4823,0.0,39.0,39.0,14.0,1.0,C4_Images_BrankaWittwer(Reversed).png,Yes
,,3,1,2023-06-19_09h46.49.952,FamTaskFinal,2022.2.4,Win32,59.99160118,,,,,,,,,,,,,,,,,,,,,,,,,
